{"resourceType":"Bundle","id":"705.973.110.538.842","meta":{"id":"599.111.398.065.034","versionId":"616.535.078.942.687","lastUpdated":"2130-06-13T03:55:31.512+02:00","source":"https://slzqylsklpkhrpg/bks4o??s?59?0j?/=5=91??8?==rws=9z==?","profile":["https://adnwkxdfqsjivbr/566gu????q?f?ts/=???====7f==?=9x3=?r"]},"language":"ic","identifier":{"use":"official","type":{"coding":[{"id":"727.687.893.085.830","system":"https://hyybyzdzkzruatg/5cos0?i?8o46???/4?838?8t=?y4l?j??5=d","version":"720.341.218.949.680","code":"aTs","display":"UuGmpZGnOIDVNEhgWVSnNhMcJCltkNyMSeSLyWANMOdPghwTjYeGwCaKzdZngQYraXMlSXArLkfYTTmghKeoMjDRpDnPxSAZDUrR","userSelected":false}]},"system":"https://estsjdzycqvnvtn/?w?1kv8??39??2?/=6?=?cp0g?1g??dl?04=","value":"EvzZVJQsbQooPuosCzRDChtZJeInlDiiuMPuOPoiZAzyLDCBUjkFqkratxCGbouGJESqiGnuxwOWRSWceuqSOAOWbjacrQYpNTTKJQjiSpaTDFkGKJZRDcV","period":{"end":"2110-07-08T00:11:29+02:00"}},"type":"message","entry":[{"fullUrl":"https://pvs.gematik.de/fhir/Composition/1443f33f-f4be-4849-85fc-ba00de545d3d","resource":{"resourceType":"Composition","id":"289.678.089.902.674","meta":{"id":"423.166.079.500.812","versionId":"762.189.428.790.393","lastUpdated":"2194-11-24T07:22:24.192+01:00","source":"https://nvharklmewlhfhr/?70icam?8?4?33?/?6lb=6?4=6d=v5?=l8a?","profile":["https://qfgkxkvqmbprywj/s?1wc5w5?u?k52m/==?==eh==m?=??===o1="]},"status":"entered-in-error","type":{"coding":[{"id":"493.223.468.463.793","system":"https://ewdwrxvcqzvbdzw/bu?nwb88???9??9/l73=?=79=?2o?3==4?m=","version":"075.129.064.891.407","code":"Nht","display":"GUdrxxCyZDRsufrebbHmmiRaOcwmLlcQXlbhPNrxafxLgVAcagctHpPRxRvVhXXRMnadiqPQiVoIzNnvyvSCINSwSLhCRTnqaTlI","userSelected":false}],"text":""},"subject":{"reference":"https://wgkwpyllfdwghfk/3629m5??vy?06z?/=4?k?j0p=m8p??90gk=7","type":"https://yexamacvplmhucs/18y?fj?n??3cxn?/l=x=91==?=6766=?8?==","identifier":{"use":"secondary","type":{"coding":[{"id":"723.532.996.937.584","system":"https://vxwngadnlapvxiz/?????????rzy7?r/??n=9=?0y0==9zx48==r","version":"434.166.272.245.176","code":"aAg","display":"JnHFFYUsJKVfHZzjKzjPHTKTrRLJrGbTYkRaFMSPAZpWdvqNtVyMcusPOHTtefYGUPEeWoMxwumSDmnYWITcMrWZADshLNafhrxm","userSelected":false}]},"system":"https://zzrtodtypfnqkhy/?t2?14?9??w?x42/?71y?=xs?92?=6=4?=?3","value":"","period":{"end":"1988-03-24T07:41:45+01:00"}},"display":""},"title":"","custodian":{"reference":"https://eqkhbvrfxilczeg/?pru?9?7?4??a99/4==0q??d?dfl?=g?==3?","type":"https://kmnlilbnfizbcpg/516???2?58t4??3/0??572?=5o0???4?=z=6","identifier":{"use":"official","type":{"coding":[{"id":"417.233.640.758.476","system":"https://vfrrfapoucjdjmq/60?8v?0?3?qo0fq/aw===1=????l=c34=8d?","version":"262.318.185.322.650","code":"Xki","display":"OGHGudchLsaOvJBuFingcASFPyFGcElwjITwUjAeLUGXtLhmtUJhPRrUmdZsYXsAWEQOseNLmzMoAAnBvOghTszajOLuzMxPSKNL","userSelected":false}]},"system":"https://hawtehadnobqsmj/d?4ab?6??8137ve/=?7=xd5=s=q=1?6?=8d=","value":"","period":{"end":"2228-01-02T10:24:37+01:00"}},"display":""},"section":[{"code":{"coding":[{"system":"https://fhir.kbv.de/CodeSystem/KBV_CS_ERP_Section_Type","code":"Coverage"}]},"entry":[{"reference":"Coverage/6d0440cd-c678-4940-9a1d-012e72ec95d7"}]},{"code":{"coding":[{"system":"https://fhir.kbv.de/CodeSystem/KBV_CS_ERP_Section_Type","code":"Prescription"}]},"entry":[{"reference":"MedicationRequest/cd7319be-3972-496a-8276-ab8bfa8a16bd"}]}]}},{"fullUrl":"https://pvs.gematik.de/fhir/MedicationRequest/cd7319be-3972-496a-8276-ab8bfa8a16bd","resource":{"resourceType":"MedicationRequest","id":"191.073.065.290.019","meta":{"id":"362.380.159.581.583","versionId":"796.766.464.439.426","lastUpdated":"2058-01-13T10:44:09.687+01:00","source":"https://rddfapvqdfhkbgd/i2r9?8t??7ja?d1/r?j?==?u??=8=??0=g=8","profile":["https://wfgfduncvywzajv/??9w?70h?bjqlj5/=?k?=?0k=v0g=f=?9a=8"]},"status":"entered-in-error","intent":"plan","medicationReference":{"reference":"https://xksxhohotuhedfn/k5ob095k42??4jc/??=?kk=4==6=?jn6=6?0","type":"https://fdonxqkzuvkayjb/p7??qlqa10?cf6v/=72=8=??=?wz=?=tc=?m","identifier":{"use":"old","type":{"coding":[{"id":"507.096.130.176.266","system":"https://slmwmlfbgtqdueg/?1q?7oxoe?nv??6/?u=?=?=y?y?f??==9?=5","version":"021.024.267.479.326","code":"YlK","display":"sMCOhZOTdNSyJiCklrCpUwJoveCBymwTkJtoMohXpyHBtzNHTUADdLBrrUuhWJMJzZcFabLhmiKMAJpBxmcpTLkaRAsklETIjpwN","userSelected":false}]},"system":"https://tnuhjevivjbsmnu/?pf45x8367334?e/?0=3=?7?w7qbj285?=3?","value":"","period":{"end":"2028-12-04T14:10:37+01:00"}},"display":""},"subject":{"reference":"https://cfuxgmefsjrioxk/??r?5?2gu??b?jv/??=pfr3?==?0==?==80?","type":"https://vxssqrcrkxshnue/j??w?1840??n7t4/8==9i?=1841??=j8===4","identifier":{"use":"temp","type":{"coding":[{"id":"192.991.389.742.468","system":"https://vjgfiybwjbmklwn/?8???9??1?24j??/46?0d?q====??4=v=?=?","version":"213.380.713.643.233","code":"iJn","display":"RceQUMFlEaQHwvDMHMTZdzzEHlqitkgDrJzuXUFwTDNrAaTQDiSJquVflbloOnawaPvyyOHhEUAnzbwoKDyCyKecfMJZzUJfNdYv","userSelected":false}]},"system":"https://vgdpsphwwrbthcs/?v1?sl?632rb?7k/=?=?1?krh??=?q1zx=5i","value":"","period":{"end":"1999-12-14T15:54:41+01:00"}},"display":""},"requester":{"reference":"https://rzaiiwxsqyasjzr/??????h35w6??1?/==9?9?==9m???51?i=4=","type":"https://owxjrjrkqxyspcr/0f?ch293???xat?/?8?=j=2?t0==3?9?z5?x","identifier":{"use":"official","type":{"coding":[{"id":"814.925.641.911.887","system":"https://hkbwqumvguihasx/??1p?17ms8?7??1/7d7=??3b?m=ze9?===x8","version":"747.659.691.340.806","code":"EMk","display":"eSJGvHKWmCnosFBVFHyLPoGVmjsqWykrLrAEJUekArQMyTtVOJRkANdgsrnjdmUUcxhFVwtOuJEaICFvEaZOuuqTDyFYVPSNWyfX","userSelected":false}]},"system":"https://pxsxfdbbbhyhyaj/5ex5zql8x?1gur?/??=?===s1==6uk???=j=","value":"","period":{"end":"2243-11-16T11:14:00+01:00"}},"display":"pmaEVfkBFKVgbdvyvlnRvbaFXHRYqIvWwecNPndkIMuwzOknERTyAKBSFAwtIuLJPMTLbpVaGcPVRZvfagbfQiMYfzeHPaKdETOizKWmNmDkvsndZgfCIgSWcbAWJjklzEceWVXWYPwQZmmxOGrIvQe"},"note":[{"authorString":"UCIHXZiZLoSVJhJ","time":"2111-06-06T16:44:29+02:00","text":"ENPAuAzyiciQfKT"}],"dispenseRequest":{"quantity":{"value":-2014124695633029238,"unit":"BKctciCRdofHyvRCNGLCXOSNVLmMcZroZpXtLVyhtSOOTXFOPtQEsTkTNRlAtTGxAJGadaJWLLBVpCshHbzwcZcALbMwswKdwOrl","system":"MOiyPPpmbamOIqhmKDPlJjJuutHIFySmSajmxibdKNpMSPdPxGGQnayhLsrWWwzFZDmEZjKtWyFNaOLdTSIeZAUHkOwyEjqYJuyD","code":"SwIsocUsRMkCvNiDUxOEDhlgzpsBNMtTcPEwzSmWpDSeCyvVULnhPbjGRBcFeNDIuKzKpqNCCkgnEvGkDxPgVdoUoLWXNDrZDAcX"}},"substitution":{"allowedBoolean":false}}},{"fullUrl":"https://pvs.gematik.de/fhir/Medication/5a06c0e0-0346-4412-8268-ef46fa423132","resource":{"resourceType":"Medication","id":"598.271.780.235.782","meta":{"id":"788.416.783.246.191","versionId":"041.571.633.418.643","lastUpdated":"2207-09-16T14:54:01.807+02:00","source":"https://iuokziopybcmmio/0?gw35??7?v??0?/5?l==?1?==3???dx3=?4","profile":["https://whgxmncfdwhaipc/g?4?6?t71?94?4?/??j????=u4y13=r??skj"]},"code":{"coding":[{"id":"071.528.550.466.129","system":"https://horzqbosgxvzgij/6859f6?2?11d9?0/dn?a=i?=?j=j??f?n??1","version":"083.526.046.119.785","code":"Ufo","display":"GolOPmWeDPDaXmfolQhITkgUKgRIvnwOrzBaaafqlmJXFNVMkHETzdBzWdoOdAjJWfQVQEgbpwdqqZUNxSMeYupIkQFdeiEHnqRg","userSelected":false}],"text":""},"form":{"coding":[{"id":"055.963.317.089.911","system":"https://bsgoncdupebbtcm/?9??zrm1x???u??/6=m?e2?=?85?892==4=m","version":"201.566.241.973.540","code":"wRW","display":"leHLWJifrbAjjlBYWwSBTidUBJEjAindMIwMbcMlaLYCVBWbXJfGajoOtccEQxsKeZjNiVEluXNVyCqkLxzjsyOYBXlPSTWfwXhg","userSelected":false}],"text":""},"amount":{"numerator":{"value":1},"denominator":{"value":2}}}},{"fullUrl":"https://pvs.gematik.de/fhir/Patient/41d96ae8-4df2-422e-9279-b7e01e8c34fb","resource":{"resourceType":"Patient","id":"927.061.409.452.221","meta":{"id":"049.935.651.896.987","versionId":"276.331.764.111.973","lastUpdated":"2162-09-24T21:32:08.638+02:00","source":"https://afrnpehrqpinjmk/?5h3467?61gok7q/=?=f9=7?u=?8v?4=k?=8","profile":["https://agkmjdecyvresto/re?91vp78?2woy4/=6?==?2??5??3??=h=?="]},"language":"vw","text":{"id":"302.850.327.352.096","status":"extensions","div":"<div xmlns=\"http://www.w3.org/1999/xhtml\"></div>"},"active":true,"maritalStatus":{"coding":[{"id":"683.560.930.998.036","system":"https://cqhsrbeielkjccq/?8?wj???bt??4oj/5s=2==?=?1=4=n?=sw1s","version":"162.865.394.551.960","code":"Kvw","display":"vMVKhcnGPQwgEluURLHUDdgOKVgpIEXMBHpMeHHOLAQATeSWRDCioKsjmQdGWyBukaEEykAKctIwRqsOGsxjrxuuUDFCLvHNkGTr","userSelected":false}],"text":""}}},{"fullUrl":"https://pvs.gematik.de/fhir/Organization/6f32172e-c6c7-42b0-aabe-4fa7ca418fd1","resource":{"resourceType":"Organization","id":"855.893.481.579.992","meta":{"id":"314.294.907.805.659","versionId":"884.706.038.772.745","lastUpdated":"2000-07-24T18:02:35.688+02:00","source":"https://lfeelwnoxlqgasv/?p3??3?rc?42?1?/?2=o?=8=?r?54?dv??0=","profile":["https://hjbrotsqcmxsdpw/?h??sj?28?0tq??/l9jsp=?0??==?=35l==="]},"language":"pq","text":{"id":"859.943.439.094.056","status":"generated","div":"<div xmlns=\"http://www.w3.org/1999/xhtml\">OwjcvExHPuqvUBTdhKCBcLsnKkWoruzsiMrzqZIlNqPLwvlWLKRaIPnnLvyUYoNYhtuSSAdFWuZBARtkSpJyVeBDWMpnfTryIyEklvMaGbMZqTQhCzgvZgcWWHQFmLSKdbfoxlIMJBiuSl</div>"},"active":true,"name":""}},{"fullUrl":"https://pvs.gematik.de/fhir/Coverage/6d0440cd-c678-4940-9a1d-012e72ec95d7","resource":{"resourceType":"Coverage","id":"??==??79sj??7=y==v0a","meta":{"id":"728.216.859.206.653","versionId":"536.489.558.580.431","lastUpdated":"2000-02-06T09:26:33.253+01:00","source":"https://sgryhhphbecmhgy/o1??a??s?fw??5u/h??=s?55j?7===c?s8t0","profile":["https://wlnojxiefhrqslo/e?7hv87?37cg6pq/d====7?e0==k?=l=?vs="]},"status":"draft","type":{"coding":[{"id":"463.129.697.693.883","system":"https://dpjtpzhfmilrnkk/kmc?qhzi2????2?/4?o?s??r9?==e?=g0=1=","version":"742.966.218.889.384","code":"dYY","display":"TowUErEdAUZegQdWnQhdcdgefTdGcTjgoqjUmJQNtgyotlbtGaoJIlxmeYIuXvTQgVzCCJsWtjwgCvgzQnoEEKvkdOvvXrjOoRSi","userSelected":false}],"text":""},"beneficiary":{"reference":"https://irbczqiibfzlwwi/7?8?ch66?j?3?82/=??d3?d?c?2qb=?4?==7","type":"https://xbwoyniloffgzqm/?y0???io7a6u80?/=??r=90?lsi==t=3???x","identifier":{"use":"temp","type":{"coding":[{"id":"624.243.886.271.781","system":"https://veatugwpomeimmt/2?0h?n2vfjf0r?j/9===mw85?=eyh==?=9?d","version":"894.246.494.617.349","code":"xhi","display":"NYBjyQtXANMUfLTYyWUNNqybPGuMIxeyfrkxUMGVFIPHRoVXURjkfZrmYaboQoWEgGjUHXqsqtOEuROJgxihNunuRZpaMzKJiTCd","userSelected":false}]},"system":"https://ajdkwzydskqlaee/bq???j1r637qd?l/=1?x=36=?=g?=????034","value":"","period":{"end":"2221-04-17T21:57:12+02:00"}},"display":"MQXvWjCfnegfjNvZRtKpegtfGUdmDFtVHKgwziOtWnEqWkdkYfGbVzsPRxGuuwljhErBYtscCUvUzbqpBlbVXPCocynuRUVtXiOOKDsHHnpLonAXCRRLHYhCDnObLNzsXI"},"period":{"start":"2094-03-15T12:51:57+01:00"},"payor":[{"identifier":{"system":"http://fhir.de/sid/arge-ik/iknr","value":"104229606"},"display":"BKK VICTORIA ‐ D.A.S."}]}},{"fullUrl":"https://pvs.gematik.de/fhir/Practitioner/7db41ab1-cd16-485d-bd5e-e2926d7846cf","resource":{"resourceType":"Practitioner","id":"478.016.356.437.967","meta":{"id":"970.456.455.552.666","versionId":"944.299.199.473.653","lastUpdated":"2014-06-29T12:13:39.230+02:00","source":"https://nxsrbschvmuirwx/5???7rv6wj?97??/===9==u=5e53???e?=h=","profile":["https://qkqnavyxdzxtuoi/7bvby5n7??01xny/?q?=h0=x0=6==?=e=?i?"]},"qualification":[{"code":{"coding":[{"system":"https://fhir.kbv.de/CodeSystem/KBV_CS_FOR_Qualification_Type","code":"00"}]}},{"code":{"coding":[{"system":"https://fhir.kbv.de/CodeSystem/KBV_CS_FOR_Berufsbezeichnung","code":"Berufsbezeichnung"}],"text":"firefighter"}}]}}]}