<Bundle xmlns="http://hl7.org/fhir"><id value="705.973.110.538.842"/><meta id="599.111.398.065.034"><versionId value="616.535.078.942.687"/><lastUpdated value="2130-06-13T03:55:31.512+02:00"/><source value="https://slzqylsklpkhrpg/bks4o??s?59?0j?/=5=91??8?==rws=9z==?"/><profile value="https://adnwkxdfqsjivbr/566gu????q?f?ts/=???====7f==?=9x3=?r"/></meta><language value="ic"/><identifier><use value="official"/><type><coding id="727.687.893.085.830"><system value="https://hyybyzdzkzruatg/5cos0?i?8o46???/4?838?8t=?y4l?j??5=d"/><version value="720.341.218.949.680"/><code value="aTs"/><display value="UuGmpZGnOIDVNEhgWVSnNhMcJCltkNyMSeSLyWANMOdPghwTjYeGwCaKzdZngQYraXMlSXArLkfYTTmghKeoMjDRpDnPxSAZDUrR"/><userSelected value="false"/></coding></type><system value="https://estsjdzycqvnvtn/?w?1kv8??39??2?/=6?=?cp0g?1g??dl?04="/><value value="EvzZVJQsbQooPuosCzRDChtZJeInlDiiuMPuOPoiZAzyLDCBUjkFqkratxCGbouGJESqiGnuxwOWRSWceuqSOAOWbjacrQYpNTTKJQjiSpaTDFkGKJZRDcV"/><period><end value="2110-07-08T00:11:29+02:00"/></period></identifier><type value="message"/><entry><fullUrl value="https://pvs.gematik.de/fhir/Composition/1443f33f-f4be-4849-85fc-ba00de545d3d"/><resource><Composition xmlns="http://hl7.org/fhir"><id value="289.678.089.902.674"/><meta id="423.166.079.500.812"><versionId value="762.189.428.790.393"/><lastUpdated value="2194-11-24T07:22:24.192+01:00"/><source value="https://nvharklmewlhfhr/?70icam?8?4?33?/?6lb=6?4=6d=v5?=l8a?"/><profile value="https://qfgkxkvqmbprywj/s?1wc5w5?u?k52m/==?==eh==m?=??===o1="/></meta><status value="entered-in-error"/><type><coding id="493.223.468.463.793"><system value="https://ewdwrxvcqzvbdzw/bu?nwb88???9??9/l73=?=79=?2o?3==4?m="/><version value="075.129.064.891.407"/><code value="Nht"/><display value="GUdrxxCyZDRsufrebbHmmiRaOcwmLlcQXlbhPNrxafxLgVAcagctHpPRxRvVhXXRMnadiqPQiVoIzNnvyvSCINSwSLhCRTnqaTlI"/><userSelected value="false"/></coding><text value=""/></type><subject><reference value="https://wgkwpyllfdwghfk/3629m5??vy?06z?/=4?k?j0p=m8p??90gk=7"/><type value="https://yexamacvplmhucs/18y?fj?n??3cxn?/l=x=91==?=6766=?8?=="/><identifier><use value="secondary"/><type><coding id="723.532.996.937.584"><system value="https://vxwngadnlapvxiz/?????????rzy7?r/??n=9=?0y0==9zx48==r"/><version value="434.166.272.245.176"/><code value="aAg"/><display value="JnHFFYUsJKVfHZzjKzjPHTKTrRLJrGbTYkRaFMSPAZpWdvqNtVyMcusPOHTtefYGUPEeWoMxwumSDmnYWITcMrWZADshLNafhrxm"/><userSelected value="false"/></coding></type><system value="https://zzrtodtypfnqkhy/?t2?14?9??w?x42/?71y?=xs?92?=6=4?=?3"/><value value=""/><period><end value="1988-03-24T07:41:45+01:00"/></period></identifier><display value=""/></subject><title value=""/><custodian><reference value="https://eqkhbvrfxilczeg/?pru?9?7?4??a99/4==0q??d?dfl?=g?==3?"/><type value="https://kmnlilbnfizbcpg/516???2?58t4??3/0??572?=5o0???4?=z=6"/><identifier><use value="official"/><type><coding id="417.233.640.758.476"><system value="https://vfrrfapoucjdjmq/60?8v?0?3?qo0fq/aw===1=????l=c34=8d?"/><version value="262.318.185.322.650"/><code value="Xki"/><display value="OGHGudchLsaOvJBuFingcASFPyFGcElwjITwUjAeLUGXtLhmtUJhPRrUmdZsYXsAWEQOseNLmzMoAAnBvOghTszajOLuzMxPSKNL"/><userSelected value="false"/></coding></type><system value="https://hawtehadnobqsmj/d?4ab?6??8137ve/=?7=xd5=s=q=1?6?=8d="/><value value=""/><period><end value="2228-01-02T10:24:37+01:00"/></period></identifier><display value=""/></custodian><section><code><coding><system value="https://fhir.kbv.de/CodeSystem/KBV_CS_ERP_Section_Type"/><code value="Coverage"/></coding></code><entry><reference value="Coverage/6d0440cd-c678-4940-9a1d-012e72ec95d7"/></entry></section><section><code><coding><system value="https://fhir.kbv.de/CodeSystem/KBV_CS_ERP_Section_Type"/><code value="Prescription"/></coding></code><entry><reference value="MedicationRequest/cd7319be-3972-496a-8276-ab8bfa8a16bd"/></entry></section></Composition></resource></entry><entry><fullUrl value="https://pvs.gematik.de/fhir/MedicationRequest/cd7319be-3972-496a-8276-ab8bfa8a16bd"/><resource><MedicationRequest xmlns="http://hl7.org/fhir"><id value="191.073.065.290.019"/><meta id="362.380.159.581.583"><versionId value="796.766.464.439.426"/><lastUpdated value="2058-01-13T10:44:09.687+01:00"/><source value="https://rddfapvqdfhkbgd/i2r9?8t??7ja?d1/r?j?==?u??=8=??0=g=8"/><profile value="https://wfgfduncvywzajv/??9w?70h?bjqlj5/=?k?=?0k=v0g=f=?9a=8"/></meta><status value="entered-in-error"/><intent value="plan"/><medicationReference><reference value="https://xksxhohotuhedfn/k5ob095k42??4jc/??=?kk=4==6=?jn6=6?0"/><type value="https://fdonxqkzuvkayjb/p7??qlqa10?cf6v/=72=8=??=?wz=?=tc=?m"/><identifier><use value="old"/><type><coding id="507.096.130.176.266"><system value="https://slmwmlfbgtqdueg/?1q?7oxoe?nv??6/?u=?=?=y?y?f??==9?=5"/><version value="021.024.267.479.326"/><code value="YlK"/><display value="sMCOhZOTdNSyJiCklrCpUwJoveCBymwTkJtoMohXpyHBtzNHTUADdLBrrUuhWJMJzZcFabLhmiKMAJpBxmcpTLkaRAsklETIjpwN"/><userSelected value="false"/></coding></type><system value="https://tnuhjevivjbsmnu/?pf45x8367334?e/?0=3=?7?w7qbj285?=3?"/><value value=""/><period><end value="2028-12-04T14:10:37+01:00"/></period></identifier><display value=""/></medicationReference><subject><reference value="https://cfuxgmefsjrioxk/??r?5?2gu??b?jv/??=pfr3?==?0==?==80?"/><type value="https://vxssqrcrkxshnue/j??w?1840??n7t4/8==9i?=1841??=j8===4"/><identifier><use value="temp"/><type><coding id="192.991.389.742.468"><system value="https://vjgfiybwjbmklwn/?8???9??1?24j??/46?0d?q====??4=v=?=?"/><version value="213.380.713.643.233"/><code value="iJn"/><display value="RceQUMFlEaQHwvDMHMTZdzzEHlqitkgDrJzuXUFwTDNrAaTQDiSJquVflbloOnawaPvyyOHhEUAnzbwoKDyCyKecfMJZzUJfNdYv"/><userSelected value="false"/></coding></type><system value="https://vgdpsphwwrbthcs/?v1?sl?632rb?7k/=?=?1?krh??=?q1zx=5i"/><value value=""/><period><end value="1999-12-14T15:54:41+01:00"/></period></identifier><display value=""/></subject><requester><reference value="https://rzaiiwxsqyasjzr/??????h35w6??1?/==9?9?==9m???51?i=4="/><type value="https://owxjrjrkqxyspcr/0f?ch293???xat?/?8?=j=2?t0==3?9?z5?x"/><identifier><use value="official"/><type><coding id="814.925.641.911.887"><system value="https://hkbwqumvguihasx/??1p?17ms8?7??1/7d7=??3b?m=ze9?===x8"/><version value="747.659.691.340.806"/><code value="EMk"/><display value="eSJGvHKWmCnosFBVFHyLPoGVmjsqWykrLrAEJUekArQMyTtVOJRkANdgsrnjdmUUcxhFVwtOuJEaICFvEaZOuuqTDyFYVPSNWyfX"/><userSelected value="false"/></coding></type><system value="https://pxsxfdbbbhyhyaj/5ex5zql8x?1gur?/??=?===s1==6uk???=j="/><value value=""/><period><end value="2243-11-16T11:14:00+01:00"/></period></identifier><display value="pmaEVfkBFKVgbdvyvlnRvbaFXHRYqIvWwecNPndkIMuwzOknERTyAKBSFAwtIuLJPMTLbpVaGcPVRZvfagbfQiMYfzeHPaKdETOizKWmNmDkvsndZgfCIgSWcbAWJjklzEceWVXWYPwQZmmxOGrIvQe"/></requester><note><authorString value="UCIHXZiZLoSVJhJ"/><time value="2111-06-06T16:44:29+02:00"/><text value="ENPAuAzyiciQfKT"/></note><dispenseRequest><quantity><value value="-2014124695633029238"/><unit value="BKctciCRdofHyvRCNGLCXOSNVLmMcZroZpXtLVyhtSOOTXFOPtQEsTkTNRlAtTGxAJGadaJWLLBVpCshHbzwcZcALbMwswKdwOrl"/><system value="MOiyPPpmbamOIqhmKDPlJjJuutHIFySmSajmxibdKNpMSPdPxGGQnayhLsrWWwzFZDmEZjKtWyFNaOLdTSIeZAUHkOwyEjqYJuyD"/><code value="SwIsocUsRMkCvNiDUxOEDhlgzpsBNMtTcPEwzSmWpDSeCyvVULnhPbjGRBcFeNDIuKzKpqNCCkgnEvGkDxPgVdoUoLWXNDrZDAcX"/></quantity></dispenseRequest><substitution><allowedBoolean value="false"/></substitution></MedicationRequest></resource></entry><entry><fullUrl value="https://pvs.gematik.de/fhir/Medication/5a06c0e0-0346-4412-8268-ef46fa423132"/><resource><Medication xmlns="http://hl7.org/fhir"><id value="598.271.780.235.782"/><meta id="788.416.783.246.191"><versionId value="041.571.633.418.643"/><lastUpdated value="2207-09-16T14:54:01.807+02:00"/><source value="https://iuokziopybcmmio/0?gw35??7?v??0?/5?l==?1?==3???dx3=?4"/><profile value="https://whgxmncfdwhaipc/g?4?6?t71?94?4?/??j????=u4y13=r??skj"/></meta><code><coding id="071.528.550.466.129"><system value="https://horzqbosgxvzgij/6859f6?2?11d9?0/dn?a=i?=?j=j??f?n??1"/><version value="083.526.046.119.785"/><code value="Ufo"/><display value="GolOPmWeDPDaXmfolQhITkgUKgRIvnwOrzBaaafqlmJXFNVMkHETzdBzWdoOdAjJWfQVQEgbpwdqqZUNxSMeYupIkQFdeiEHnqRg"/><userSelected value="false"/></coding><text value=""/></code><form><coding id="055.963.317.089.911"><system value="https://bsgoncdupebbtcm/?9??zrm1x???u??/6=m?e2?=?85?892==4=m"/><version value="201.566.241.973.540"/><code value="wRW"/><display value="leHLWJifrbAjjlBYWwSBTidUBJEjAindMIwMbcMlaLYCVBWbXJfGajoOtccEQxsKeZjNiVEluXNVyCqkLxzjsyOYBXlPSTWfwXhg"/><userSelected value="false"/></coding><text value=""/></form><amount><numerator><value value="1"/></numerator><denominator><value value="2"/></denominator></amount></Medication></resource></entry><entry><fullUrl value="https://pvs.gematik.de/fhir/Patient/41d96ae8-4df2-422e-9279-b7e01e8c34fb"/><resource><Patient xmlns="http://hl7.org/fhir"><id value="927.061.409.452.221"/><meta id="049.935.651.896.987"><versionId value="276.331.764.111.973"/><lastUpdated value="2162-09-24T21:32:08.638+02:00"/><source value="https://afrnpehrqpinjmk/?5h3467?61gok7q/=?=f9=7?u=?8v?4=k?=8"/><profile value="https://agkmjdecyvresto/re?91vp78?2woy4/=6?==?2??5??3??=h=?="/></meta><language value="vw"/><text id="302.850.327.352.096"><status value="extensions"/><div xmlns="http://www.w3.org/1999/xhtml"></div></text><active value="true"/><maritalStatus><coding id="683.560.930.998.036"><system value="https://cqhsrbeielkjccq/?8?wj???bt??4oj/5s=2==?=?1=4=n?=sw1s"/><version value="162.865.394.551.960"/><code value="Kvw"/><display value="vMVKhcnGPQwgEluURLHUDdgOKVgpIEXMBHpMeHHOLAQATeSWRDCioKsjmQdGWyBukaEEykAKctIwRqsOGsxjrxuuUDFCLvHNkGTr"/><userSelected value="false"/></coding><text value=""/></maritalStatus></Patient></resource></entry><entry><fullUrl value="https://pvs.gematik.de/fhir/Organization/6f32172e-c6c7-42b0-aabe-4fa7ca418fd1"/><resource><Organization xmlns="http://hl7.org/fhir"><id value="855.893.481.579.992"/><meta id="314.294.907.805.659"><versionId value="884.706.038.772.745"/><lastUpdated value="2000-07-24T18:02:35.688+02:00"/><source value="https://lfeelwnoxlqgasv/?p3??3?rc?42?1?/?2=o?=8=?r?54?dv??0="/><profile value="https://hjbrotsqcmxsdpw/?h??sj?28?0tq??/l9jsp=?0??==?=35l==="/></meta><language value="pq"/><text id="859.943.439.094.056"><status value="generated"/><div xmlns="http://www.w3.org/1999/xhtml">OwjcvExHPuqvUBTdhKCBcLsnKkWoruzsiMrzqZIlNqPLwvlWLKRaIPnnLvyUYoNYhtuSSAdFWuZBARtkSpJyVeBDWMpnfTryIyEklvMaGbMZqTQhCzgvZgcWWHQFmLSKdbfoxlIMJBiuSl</div></text><active value="true"/><name value=""/></Organization></resource></entry><entry><fullUrl value="https://pvs.gematik.de/fhir/Coverage/6d0440cd-c678-4940-9a1d-012e72ec95d7"/><resource><Coverage xmlns="http://hl7.org/fhir"><id value="??==??79sj??7=y==v0a"/><meta id="728.216.859.206.653"><versionId value="536.489.558.580.431"/><lastUpdated value="2000-02-06T09:26:33.253+01:00"/><source value="https://sgryhhphbecmhgy/o1??a??s?fw??5u/h??=s?55j?7===c?s8t0"/><profile value="https://wlnojxiefhrqslo/e?7hv87?37cg6pq/d====7?e0==k?=l=?vs="/></meta><status value="draft"/><type><coding id="463.129.697.693.883"><system value="https://dpjtpzhfmilrnkk/kmc?qhzi2????2?/4?o?s??r9?==e?=g0=1="/><version value="742.966.218.889.384"/><code value="dYY"/><display value="TowUErEdAUZegQdWnQhdcdgefTdGcTjgoqjUmJQNtgyotlbtGaoJIlxmeYIuXvTQgVzCCJsWtjwgCvgzQnoEEKvkdOvvXrjOoRSi"/><userSelected value="false"/></coding><text value=""/></type><beneficiary><reference value="https://irbczqiibfzlwwi/7?8?ch66?j?3?82/=??d3?d?c?2qb=?4?==7"/><type value="https://xbwoyniloffgzqm/?y0???io7a6u80?/=??r=90?lsi==t=3???x"/><identifier><use value="temp"/><type><coding id="624.243.886.271.781"><system value="https://veatugwpomeimmt/2?0h?n2vfjf0r?j/9===mw85?=eyh==?=9?d"/><version value="894.246.494.617.349"/><code value="xhi"/><display value="NYBjyQtXANMUfLTYyWUNNqybPGuMIxeyfrkxUMGVFIPHRoVXURjkfZrmYaboQoWEgGjUHXqsqtOEuROJgxihNunuRZpaMzKJiTCd"/><userSelected value="false"/></coding></type><system value="https://ajdkwzydskqlaee/bq???j1r637qd?l/=1?x=36=?=g?=????034"/><value value=""/><period><end value="2221-04-17T21:57:12+02:00"/></period></identifier><display value="MQXvWjCfnegfjNvZRtKpegtfGUdmDFtVHKgwziOtWnEqWkdkYfGbVzsPRxGuuwljhErBYtscCUvUzbqpBlbVXPCocynuRUVtXiOOKDsHHnpLonAXCRRLHYhCDnObLNzsXI"/></beneficiary><period><start value="2094-03-15T12:51:57+01:00"/></period><payor><identifier><system value="http://fhir.de/sid/arge-ik/iknr"/><value value="104229606"/></identifier><display value="BKK VICTORIA ‐ D.A.S."/></payor></Coverage></resource></entry><entry><fullUrl value="https://pvs.gematik.de/fhir/Practitioner/7db41ab1-cd16-485d-bd5e-e2926d7846cf"/><resource><Practitioner xmlns="http://hl7.org/fhir"><id value="478.016.356.437.967"/><meta id="970.456.455.552.666"><versionId value="944.299.199.473.653"/><lastUpdated value="2014-06-29T12:13:39.230+02:00"/><source value="https://nxsrbschvmuirwx/5???7rv6wj?97??/===9==u=5e53???e?=h="/><profile value="https://qkqnavyxdzxtuoi/7bvby5n7??01xny/?q?=h0=x0=6==?=e=?i?"/></meta><qualification><code><coding><system value="https://fhir.kbv.de/CodeSystem/KBV_CS_FOR_Qualification_Type"/><code value="00"/></coding></code></qualification><qualification><code><coding><system value="https://fhir.kbv.de/CodeSystem/KBV_CS_FOR_Berufsbezeichnung"/><code value="Berufsbezeichnung"/></coding><text value="firefighter"/></code></qualification></Practitioner></resource></entry></Bundle>